Folder: nesm-python/data/EDS-Map

Note: README.md
# nesm-python
Notebooks for the python workshop at the New England Society for Microscopy Spring 2021 Meeting

File: Map_001 particles_WholeSpectrum.emsa
#FORMAT      : EMSA/MAS Spectral Data File
#VERSION     : TC202v2.0
#TITLE       : Map_001 particles_wholespectrum
#DATE        : 22-DEC-2020
#TIEM        : 11:51
#OWNER       : Jennifer
#NPOINTS     : 2048
#NCOLUMNS    : 2
#XUNITS      : Energy (eV)
#YUNITS      : Intensity
#DATATYPE    : XY
#XPERCHAN    : 10
#OFFSET      : 0.00
#SIGNALTYPE  : EDS
#COMMENT     :
#BEAMKV      : 15
#PROBECUR    : 1E-09
#MAGCAM      : 2000
#LIVETIME    : 39.31
#REALTIME    : 66.08
#EDSDET      : SDUTW
##QUALELEM   : C,Mg,Al,Si,S,Ni,Zn,Ag,Sn
#SPECTRUM    : Spectral data start here.
0, 0
70, 0
140, 293
210, 655
280, 5324
350, 691
420, 653
490, 965
560, 919
630, 548
700, 1210
770, 1987
840, 10109
910, 1673
980, 1462
1050, 1411
1120, 710
1190, 745
1260, 1056
1330, 791
1400, 833
1470, 1178
1540, 903
1610, 788
1680, 936
1750, 1192
1820, 915
1890, 855
1960, 811
2030, 838
2100, 816
2170, 815
2240, 852
2310, 1062
2380, 873
2450, 854
2520, 859
2590, 1046
2660, 1294
2730, 903
2800, 1000
2870, 1084
2940, 6869
3010, 11340
3080, 2916
3150, 5753
3220, 3031
3290, 1749
3360, 2525
3430, 5642
3500, 3412
3570, 1107
3640, 2358
3710, 2395
3780, 1157
3850, 926
3920, 1109
3990, 611
4060, 575
4130, 664
4200, 578
4270, 464
4340, 528
4410, 534
4480, 454
4550, 444
4620, 442
4690, 452
4760, 440
4830, 429
4900, 387
4970, 411
5040, 460
5110, 385
5180, 449
5250, 409
5320, 437
5390, 405
5460, 390
5530, 376
5600, 409
5670, 389
5740, 387
5810, 365
5880, 417
5950, 343
6020, 353
6090, 388
6160, 366
6230, 369
6300, 354
6370, 351
6440, 364
6510, 335
6580, 333
6650, 336
6720, 332
6790, 306
6860, 314
6930, 314
7000, 307
7070, 320
7140, 310
7210, 291
7280, 316
7350, 764
7420, 2836
7490, 3649
7560, 1442
7630, 396
7700, 292
7770, 280
7840, 258
7910, 260
7980, 251
8050, 271
8120, 297
8190, 509
8260, 668
8330, 492
8400, 274
8470, 214
8540, 284
8610, 393
8680, 345
8750, 232
8820, 173
8890, 213
8960, 196
9030, 194
9100, 204
9170, 184
9240, 192
9310, 170
9380, 192
9450, 180
9520, 180
9590, 200
9660, 170
9730, 163
9800, 157
9870, 140
9940, 153
10010, 155
10080, 138
10150, 142
10220, 151
10290, 126
10360, 140
10430, 126
10500, 120
10570, 137
10640, 132
10710, 136
10780, 135
10850, 126
10920, 101
10990, 109
11060, 116
11130, 108
11200, 101
11270, 115
11340, 102
11410, 91
11480, 98
11550, 89
11620, 90
11690, 70
11760, 81
11830, 90
11900, 82
11970, 82
12040, 72
12110, 80
12180, 70
12250, 72
12320, 68
12390, 74
12460, 62
12530, 64
12600, 60
12670, 61
12740, 68
12810, 55
12880, 46
12950, 60
13020, 44
13090, 51
13160, 42
13230, 35
13300, 40
13370, 36
13440, 40
13510, 32
13580, 26
13650, 37
13720, 29
13790, 18
13860, 32
13930, 20
14000, 19
14070, 23
14140, 16
14210, 16
14280, 11
14350, 19
14420, 14
14490, 9
14560, 13
14630, 9
14700, 6
14770, 4
14840, 4
14910, 2
14980, 0
15050, 1
15120, 1
15190, 0
15260, 1
15330, 0
15400, 0
15470, 1
15540, 1
15610, 1
15680, 1
15750, 1
15820, 1
15890, 1
15960, 0
16030, 0
16100, 0
16170, 0
16240, 0
16310, 0
16380, 0
16450, 0
16520, 1
16590, 0
16660, 0
16730, 0
16800, 1
16870, 0
16940, 0
17010, 0
17080, 0
17150, 1
17220, 1
17290, 0
17360, 0
17430, 1
17500, 0
17570, 0
17640, 0
17710, 0
17780, 0
17850, 0
17920, 0
17990, 0
18060, 0
18130, 1
18200, 0
18270, 0
18340, 0
18410, 0
18480, 0
18550, 0
18620, 0
18690, 0
18760, 0
18830, 1
18900, 0
18970, 0
19040, 0
19110, 0
19180, 0
19250, 0
19320, 1
19390, 1
19460, 1
19530, 1
19600, 0
19670, 0
19740, 0
19810, 0
19880, 0
19950, 0
20020, 0
20090, 0
20160, 1
20230, 0
20300, 0
20370, 0
20440, 0
20470, 0
#ENDOFDATA   :